Folder: pyDataVis/examples/ConvertMenu/PRF/LaB6

Note: examples/ConvertMenu/PRF/readme.txt
Test of the PRF option in the Convert menu.

PRF file are generated by the FullProf software (https://www.ill.eu/sites/fullprof/index.html) at the end of a Rietveld analysis of powder diffraction data. 

There are two examples, each in its folder. These folders contain the XRD pattern used for Rietveld analysis (.dat) and the input file used by Fullprof (.pcr). Here we will use the .prf file.

Select one folder and open the .prf file; for example in "Anatase" folder open "Anatase.prf".

The data are not decoded, select the PRF option in the Convert menu.

This generate a new file using the same name as the ".prf" file but with ".plt extension. Then this file is loaded and plotted in a new pyDataVis window. The .png image file shows the Plotting area.

File: LaB6-XRD.dat
10.0     190
10.50001 240
11.00002 100
11.50003 110
12.00005 100
12.50006 60
13.00007 20
13.50008 80
14.00009 50
14.5001  90
15.00011 90
15.50013 100
16.00014 90
16.50015 110
17.00016 40
17.50017 80
18.00018 100
18.50019 80
19.00021 80
19.50022 30
20.00023 70
20.50024 120
21.00025 110
21.50026 2990
22.00027 50
22.50029 90
23.0003  70
23.50031 70
24.00032 60
24.50033 30
25.00034 20
25.50035 40
26.00037 20
26.50038 60
27.00039 50
27.5004  50
28.00041 90
28.50042 110
29.00043 80
29.50045 80
30.00046 220
30.50047 9550
31.00048 90
31.50049 60
32.0005  40
32.50051 40
33.00053 10
33.50054 30
34.00055 40
34.50056 30
35.00057 0
35.50058 20
36.0006  50
36.50061 30
37.00062 70
37.50063 7490
38.00064 80
38.50065 50
39.00066 40
39.50068 90
40.00069 30
40.5007  40
41.00071 40
41.50072 10
42.00073 30
42.50074 30
43.00076 60
43.50077 1530
44.00078 30
44.50079 30
45.0008  30
45.50081 20
46.00082 10
46.50084 30
47.00085 30
47.50086 50
48.00087 50
48.50088 130
49.00089 8470
49.5009  80
50.00092 20
50.50093 10
51.00094 50
51.50095 10
52.00096 20
52.50097 50
53.00098 40
53.501   40
54.00101 3000
54.50102 50
55.00103 60
55.50104 60
56.00105 80
56.50106 50
57.00108 10
57.50109 20
58.0011  30
58.50111 60
59.00112 0
59.50113 30
60.00114 20
60.50116 20
61.00117 20
61.50118 10
62.00119 40
62.5012  20
63.00121 70
63.50122 240
64.00124 60
64.50125 40
65.00126 50
65.50127 40
66.00128 30
66.5013  50
67.0013  60
67.50131 820
68.00133 140
68.50134 40
69.00135 60
69.50136 70
70.00137 20
70.50139 70
71.0014  20
71.5014  90
72.00142 1700
72.50143 10
73.00144 10
73.50145 10
74.00146 0
74.50148 10
75.00149 20
75.5015  60
76.00151 240
76.50153 50
77.00153 20
77.50154 70
78.00156 60
78.50157 0
79.00158 10
79.50159 60
80.0016  70
80.50162 20
81.00163 30
81.50163 10
82.00165 50
82.50166 20
83.00167 0
83.50168 70
84.00169 110
84.50171 40
85.00172 10
85.50172 20
86.00174 10
86.50175 30
87.00176 20
87.50177 70
88.00179 280
88.5018  40
89.00181 20
89.50182 30
90.00183 0
90.50185 0
91.00185 20
91.50186 40
92.00188 50
92.50189 30
93.0019  40
93.50191 0
94.00192 10
94.50194 20
95.00195 40
95.50195 80
96.00197 220
96.50198 50
97.00199 50
97.502   60
98.00201 30
98.50203 10
99.00204 30
99.50204 220
100.0021 810
100.5021 80
101.0021 50
101.5021 50
102.0021 40
102.5021 60
103.0021 30
103.5021 250
104.0022 420
104.5022 40
105.0022 50
105.5022 90
106.0022 0
106.5022 20
107.0022 30
107.5022 60
108.0022 90
108.5023 90
109.0023 40
109.5023 30
110.0023 40
110.5023 30
111.0023 10
111.5023 60
112.0023 650
112.5023 130
113.0024 40
113.5024 30
114.0024 30
114.5024 30
115.0024 50
115.5024 100
116.0024 190
116.5024 250
117.0024 130
117.5025 20
118.0025 10
118.5025 40
119.0025 30
119.5025 10
120.0025 50
120.5025 100
121.0025 80
121.5025 60
122.0026 40
122.5026 50
123.0026 40
123.5026 40
124.0026 10
124.5026 10
125.0026 40
125.5026 20
126.0027 40
126.5027 60
127.0027 20
127.5027 40
128.0027 20
128.5027 10
129.0027 50
129.5027 80
130.0027 70
130.5028 410
131.0028 230
131.5028 80
132.0028 30
132.5028 80
133.0028 10
133.5028 40
134.0028 40
134.5029 50
135.0029 10
135.5029 100
136.0029 230
136.5029 280
137.0029 70
137.5029 20
138.0029 50
138.5029 30
139.003  20
139.503  70
140.003  70
140.503  40
141.003  40
141.503  310
142.003  490
142.503  520
143.0031 50
143.5031 80
144.0031 40
144.5031 40
145.0031 40
145.5031 30
146.0031 60
146.5031 100
147.0031 60
147.5031 40
148.0032 30
148.5032 450
149.0032 190
149.5032 150
150.0032 200
150.5032 20
151.0032 50
151.5032 50
152.0033 0
152.5033 50
153.0033 30
153.5033 60
154.0033 0
154.5033 50
155.0033 50